num_trial,coh,direction,resp,status,RT,Completed
1,0.032,0,0,1,0.821315200009849,1
2,0,1,0,0,0.492944700003136,1
3,0.256,0,0,1,0.59661259999848,1
4,0.512,1,1,1,0.539077399997041,1
5,0.064,0,0,1,0.568046900007175,1
6,0,0,1,0,0.782387000013841,1
7,0.512,0,0,1,0.364461899996968,1
8,0.256,0,0,1,0.446809300017776,1
9,0.032,0,0,1,0.400019799999427,1
10,0.032,1,0,0,0.399211600015406,1
11,0.128,1,0,0,0.449337099998957,1
12,0.032,0,1,0,0.434709199995268,1
13,0,1,0,0,0.312979400012409,1
14,0,1,0,0,0.572459799994249,1
15,0.064,1,1,1,0.645481499988819,1
16,0.512,0,0,1,0.477223099995172,1
17,0,0,0,1,0.713940100016771,1
18,0.032,0,1,0,0.603033499995945,1
19,0.256,1,0,0,0.403105999983381,1
20,0.256,0,0,1,0.431299799995031,1
21,0.128,0,0,1,0.852581699989969,1
22,0.512,1,1,1,0.443709299986949,1
23,0,0,0,1,0.384035399998538,1
24,0.512,1,1,1,0.538002600020263,1
25,0.032,0,1,0,0.48083939999924,1
26,0.064,0,0,1,0.40886500000488,1
27,0.032,0,0,1,0.433132599981036,1
28,0.128,0,0,1,0.317892500024755,1
29,0.512,1,1,1,0.473272500006715,1
30,0,1,0,0,0.663553899998078,1
31,0.128,0,0,1,0.500414200010709,1
32,0.128,1,1,1,0.527625300019281,1
33,0.256,0,0,1,0.40249850001419,1
34,0.512,1,1,1,0.445156400004635,1
35,0.032,1,0,0,0.553524700022535,1
36,0.256,1,1,1,0.348419699992519,1
37,0,1,0,0,0.455744900013087,1
38,0.512,1,1,1,0.314799799991306,1
39,0,1,1,1,0.64255860002595,1
40,0.256,0,0,1,0.445770799997263,1
41,0.032,1,1,1,0.395748800016008,1
42,0.512,1,1,1,0.533269200008363,1
43,0,1,0,0,0.561943299981067,1
44,0.032,1,1,1,0.357447999995202,1
45,0.064,1,1,1,0.607970099983504,1
46,0,1,1,1,0.503826299973298,1
47,0.032,0,1,0,0.406245099991793,1
48,0.256,0,0,1,0.44569589997991,1
49,0.064,0,1,0,0.487902399996528,1
50,0.128,0,0,1,0.372481200000038,1
51,0.512,0,0,1,0.451640699990094,1
52,0.512,1,1,1,0.408113800018327,1
53,0.064,1,0,0,0.705919500003802,1
54,0.128,0,1,0,0.527977800025837,1
55,0.256,0,0,1,0.332068300020183,1
56,0.128,1,1,1,0.502183300006436,1
57,0,1,0,0,0.464496500004316,1
58,0.512,1,1,1,0.394967000000179,1
59,0.032,0,0,1,0.530161299975589,1
60,0.032,0,0,1,0.923382599983597,1
61,0.064,0,0,1,0.429751799994847,1
62,0.128,1,1,1,0.468052099982742,1
63,0.256,0,0,1,0.388277099991683,1
64,0.256,1,0,0,0.411914099997375,1
65,0.256,0,0,1,0.450668100005714,1
66,0.128,1,1,1,0.54192509999848,1
67,0.256,0,0,1,0.479582100000698,1
68,0.064,0,0,1,0.754881200002274,1
69,0.256,1,1,1,0.46524039999349,1
70,0,1,0,0,0.370379400003003,1
71,0.064,0,0,1,0.561778100003721,1
72,0.512,0,0,1,0.429362199996831,1
73,0.128,1,1,1,0.380090399994515,1
74,0.128,1,0,0,0.360436799994204,1
75,0.512,0,0,1,0.414050599996699,1
76,0.256,1,1,1,0.498740399983944,1
77,0.256,1,1,1,0.633666099980474,1
78,0,1,1,1,1.1720335999853,1
79,0.128,1,1,1,0.476845199998934,1
80,0.032,0,1,0,0.716677200020058,1
81,0.128,0,0,1,0.593819200003054,1
82,0.256,0,0,1,0.447808400000213,1
83,0.256,0,0,1,0.341129499982344,1
84,0.512,1,1,1,0.458363000012469,1
85,0.032,0,0,1,0.450703799986513,1
86,0,1,1,1,0.639907200005837,1
87,0.512,1,1,1,0.461463100014953,1
88,0.032,0,0,1,0.589740600000368,1
89,0,1,1,1,0.800837199989473,1
90,0.256,0,0,1,0.351718699996127,1
91,0,1,1,1,0.614074500015704,1
92,0.064,1,0,0,0.472035099985078,1
93,0,1,1,1,0.488727699994342,1
94,0.064,0,1,0,0.437749200005783,1
95,0,1,0,0,0.458297499979381,1
96,0.032,0,1,0,0.675280800001929,1
97,0.256,0,0,1,0.379656100005377,1
98,0.128,0,0,1,0.498365600011311,1
99,0.128,1,0,0,0.717798899975605,1
100,0.128,0,1,0,0.410185999993701,1
101,0.064,0,0,1,0.417740200005937,1
102,0.256,1,1,1,0.582128600013675,1
103,0.064,0,0,1,0.402162099984707,1
104,0.032,1,0,0,0.395482899999479,1
105,0,1,1,1,0.373141600022791,1
106,0,1,0,0,0.505775500001619,1
107,0,0,1,0,0.37246509999386,1
108,0.032,0,0,1,0.389505200000713,1
109,0.064,0,0,1,0.754876199993305,1
110,0.032,1,0,0,0.448552799993195,1
111,0.256,0,1,0,0.405380599986529,1
112,0.064,0,1,0,0.84240839999984,1
113,0.128,0,0,1,0.436487400002079,1
114,0.064,1,0,0,0.658907500008354,1
115,0.032,0,1,0,0.535647999990033,1
116,0.032,1,0,0,0.405188700009603,1
117,0.128,0,0,1,0.505905600002734,1
118,0.512,0,0,1,0.437357200018596,1
119,0.128,1,1,1,0.818285399989691,1
120,0.512,1,1,1,0.535975300008431,1
121,0.128,1,1,1,0.838465999986511,1
122,0.512,0,0,1,0.504348299989942,1
123,0.064,1,0,0,0.696326999983285,1
124,0.512,0,0,1,0.499322299991036,1
125,0.128,0,0,1,0.518508900015149,1
126,0,1,0,0,0.883319400018081,1
127,0.032,0,1,0,0.662424799986184,1
128,0.032,0,0,1,0.406961200002115,1
129,0.128,0,0,1,0.530743400013307,1
130,0.128,0,0,1,0.432018499996047,1
131,0.032,1,0,0,0.427322700008517,1
132,0.256,0,0,1,0.605792799993651,1
133,0.032,0,0,1,0.472121600003447,1
134,0,0,0,1,0.437083600001642,1
135,0.512,0,0,1,0.377123299986124,1
136,0.512,1,1,1,0.501949299999978,1
137,0.032,1,0,0,0.420886200008681,1
138,0,1,0,0,0.353837600006955,1
139,0.064,1,1,1,0.534732800006168,1
140,0.256,0,0,1,0.381754500005627,1
141,0.256,0,0,1,0.608565400005318,1
142,0.064,0,0,1,0.392821699992055,1
143,0.128,0,0,1,0.414427899988368,1
144,0.064,1,1,1,0.625263099995209,1
145,0.032,0,0,1,0.633579600020312,1
146,0.256,1,1,1,0.506525500008138,1
147,0.128,0,0,1,0.391606699995464,1
148,0.512,0,0,1,0.398889099975349,1
149,0.256,0,0,1,0.568728899990674,1
150,0,1,0,0,0.38007079999079,1
151,0.064,0,1,0,0.498204600007739,1
152,0.128,1,1,1,0.680088099994464,1
153,0.032,0,0,1,0.420512600016082,1
154,0.032,1,0,0,0.545303899998544,1
155,0.512,1,1,1,0.396840200002771,1
156,0.064,1,0,0,0.392202900024131,1
157,0.064,0,1,0,0.443892199982656,1
158,0.032,0,0,1,0.425122999993619,1
159,0,0,0,1,0.595845300005749,1
160,0.128,1,1,1,0.538253100006841,1
161,0.032,0,0,1,0.426739799993811,1
162,0.256,1,1,1,0.631738399999449,1
163,0.064,1,0,0,0.353553299995838,1
164,0.256,1,1,1,0.308035299996845,1
165,0.256,1,0,0,0.426913800009061,1
166,0.064,0,1,0,0.334768200002145,1
167,0.128,0,0,1,0.620758100005332,1
168,0,0,0,1,0.672596500022337,1
169,0.512,0,0,1,0.408064299990656,1
170,0.512,1,1,1,0.423498599993763,1
171,0.032,1,0,0,0.559013099991716,1
172,0,1,1,1,0.490340199990897,1
173,0.512,0,0,1,0.384543199994368,1
174,0.064,1,1,1,0.504243400006089,1
175,0.128,0,0,1,0.546096500009298,1
176,0.064,1,0,0,0.912728099996457,1
177,0.128,0,0,1,0.618195100018056,1
178,0.128,0,0,1,0.658695599995553,1
179,0.512,1,1,1,0.448716200015042,1
180,0.128,1,0,0,0.419932300021173,1
181,0,1,0,0,0.506626499991398,1
182,0.064,1,1,1,0.549526899994817,1
183,0.064,1,1,1,0.842735600017477,1
184,0,1,0,0,0.674309599999106,1
185,0.032,0,0,1,0.822430400003213,1
186,0.256,0,0,1,0.603853999986313,1
187,0.064,1,0,0,0.922408700018423,1
188,0,1,1,1,0.673959300009301,1
189,0.064,1,1,1,0.326411899994127,1
190,0.512,1,1,1,0.44507970000268,1
191,0,1,0,0,0.639128699986031,1
192,0.064,0,0,1,0.692467999993823,1
193,0.512,1,1,1,0.419105700013461,1
194,0.256,0,0,1,0.413824199989904,1
195,0.512,1,1,1,0.531448900001124,1
196,0.512,1,1,1,0.454611699999077,1
197,0.512,0,0,1,0.447881899977801,1
198,0.256,0,0,1,0.514453799987677,1
199,0.128,1,1,1,0.57439069999964,1
200,0.064,1,0,0,0.822815099993022,1
201,0.512,0,0,1,0.397610199986957,1
202,0.064,0,0,1,0.482287699996959,1
203,0,1,0,0,0.684578000014881,1
204,0.256,1,1,1,0.591269900003681,1
