num_trial,coh,direction,resp,status,RT,Completed
1,0.512,0,0,1,0.6705052999896,1
2,0.256,1,1,1,1.24276180000743,1
3,0.128,1,1,1,1.62271169997985,1
4,0,1,1,1,0.948735699988902,1
5,0,1,0,0,0.71473419998074,1
6,0.064,1,1,1,1.11629239999456,1
7,0.512,0,0,1,0.924719899980118,1
8,0.512,0,0,1,1.17125169999781,1
9,0.512,1,1,1,0.919516000023577,1
10,0.512,0,0,1,0.911974600021495,1
11,0.128,1,1,1,1.34499739998137,1
12,0.064,1,1,1,1.103173600015,1
13,0.032,1,1,1,1.31655610000598,1
14,0.032,0,0,1,1.24835469998652,1
15,0.032,1,1,1,1.11485469999025,1
16,0.128,0,0,1,1.25821649999125,1
17,0.032,0,1,0,1.34731819998706,1
18,0.256,0,0,1,0.945858199993381,1
19,0.256,0,0,1,0.79390049999347,1
20,0.512,0,0,1,0.691528099996503,1
21,0.512,0,0,1,1.14223570001195,1
22,0.032,1,0,0,1.09713219999685,1
23,0.512,0,0,1,0.958441599999787,1
24,0.256,1,1,1,0.848781700013205,1
25,0.256,0,0,1,0.899913500004914,1
26,0.128,1,1,1,1.06079210000462,1
27,0,0,0,1,0.923406799993245,1
28,0.512,0,0,1,0.970804200012935,1
29,0.032,1,1,1,1.33212850001291,1
30,0.512,1,1,1,1.0440615999978,1
31,0.128,0,0,1,1.05595609999727,1
32,0.256,0,0,1,0.977499500004342,1
33,0.064,1,0,0,1.00816199998371,1
34,0.256,0,0,1,0.652490900014527,1
35,0.032,0,1,0,1.08709919999819,1
36,0.256,1,1,1,1.07934650001698,1
37,0.032,0,1,0,1.420111000014,1
38,0.032,0,0,1,0.565334800019627,1
39,0.064,0,0,1,0.862087800021982,1
40,0.064,1,0,0,0.960662899975432,1
41,0.512,1,1,1,0.841924599983031,1
42,0.064,1,1,1,0.984468599985121,1
43,0.128,0,0,1,0.95898599998327,1
44,0,0,1,0,0.855773599992972,1
45,0.064,1,0,0,0.813329700002214,1
46,0.064,0,1,0,1.42172680000658,1
47,0.512,1,1,1,0.748816100007389,1
48,0.064,0,0,1,1.16689210000914,1
49,0.032,1,0,0,0.692431000003126,1
50,0,1,1,1,1.96814529999392,1
51,0.256,1,1,1,0.718935599987162,1
52,0,0,1,0,0.93374850001419,1
53,0.128,1,1,1,1.54529629999888,1
54,0,1,1,1,1.05088709999109,1
55,0.064,1,1,1,1.07348810002441,1
56,0,0,1,0,1.53767680001329,1
57,0.256,1,1,1,0.96779249998508,1
58,0.256,0,0,1,0.894272900011856,1
59,0,1,0,0,1.92303659999743,1
60,0.064,0,1,0,1.71869900001911,1
61,0.512,0,0,1,0.615869100001873,1
62,0.128,0,0,1,1.04223309998633,1
63,0.064,0,0,1,1.1953375999874,1
64,0.512,1,1,1,0.657028400019044,1
65,0.512,0,0,1,0.614243000018178,1
66,0.256,1,1,1,1.00534249999328,1
67,0.032,0,0,1,0.495881999988342,1
68,0.128,1,1,1,0.897049599996535,1
69,0.128,1,1,1,1.02445799999987,1
70,0.032,1,1,1,1.03534709999803,1
71,0.128,1,1,1,0.745348500000546,1
72,0.256,1,1,1,1.06771689999732,1
73,0.032,0,0,1,0.99423179999576,1
74,0.256,1,1,1,0.758224999997765,1
75,0.064,1,0,0,0.587802599999122,1
76,0.512,1,1,1,0.547362699988298,1
77,0.128,0,0,1,0.895520599995507,1
78,0.064,1,1,1,0.732990699994843,1
79,0.128,0,1,0,1.3254507999809,1
80,0.128,1,1,1,1.80715509998845,1
81,0.512,0,0,1,0.660986000002595,1
82,0.064,1,1,1,0.999587999976939,1
83,0,1,0,0,1.39181299999473,1
84,0.128,0,1,0,0.599571200000355,1
85,0,0,0,1,1.02968089998467,1
86,0.064,1,1,1,2.14124149997951,1
87,0.256,0,0,1,1.02358949999325,1
88,0,0,1,0,1.82841069999267,1
89,0.064,0,0,1,0.945090399996843,1
90,0.512,1,1,1,0.845240399998147,1
91,0.128,0,0,1,0.918819800019264,1
92,0.064,1,1,1,1.06449900000007,1
93,0.064,0,1,0,1.88396180002019,1
94,0,1,1,1,0.957456200005254,1
95,0.512,0,0,1,0.619512000004761,1
96,0.064,0,0,1,0.978050499979872,1
97,0.256,0,0,1,0.617175099992892,1
98,0.128,0,0,1,0.656924199982313,1
99,0.064,1,1,1,0.839867099974072,1
100,0.128,1,0,0,1.11874939998961,1
101,0.256,0,0,1,0.876322700001765,1
102,0.064,0,1,0,1.26935289998073,1
103,0.512,0,0,1,0.459750600013649,1
104,0.128,0,1,0,0.995699899998726,1
105,0,0,0,1,0.667282500013243,1
106,0.032,1,1,1,1.88273290000507,1
107,0.128,0,1,0,1.02776080000331,1
108,0.064,0,1,0,1.37821289998828,1
109,0.032,1,1,1,1.28038680000464,1
110,0,1,1,1,1.03489579999587,1
111,0.064,0,0,1,2.53905839999788,1
112,0,0,1,0,1.1115051000088,1
113,0.512,1,1,1,0.804555799986701,1
114,0.512,1,1,1,1.75866699998733,1
115,0,1,0,0,1.4682472999848,1
116,0.032,0,0,1,1.05970250000246,1
117,0.256,0,0,1,1.80845660000341,1
118,0.032,1,0,0,1.07917569999699,1
119,0,1,1,1,1.08344149999903,1
120,0.064,0,1,0,1.7830408999871,1
121,0,1,0,0,1.02549590001581,1
122,0.512,0,0,1,0.818463099974906,1
123,0.032,1,1,1,1.1724574000109,1
124,0,0,1,0,1.37353420001455,1
125,0.256,1,1,1,0.87876029999461,1
126,0,0,0,1,1.43607709999196,1
127,0,0,0,1,1.36971350002568,1
128,0.256,1,1,1,1.83661249998841,1
129,0.128,1,1,1,1.25620180001715,1
130,0.064,1,1,1,1.60793930001091,1
131,0,0,1,0,1.4434012999991,1
132,0,0,1,0,0.843819300003815,1
133,0.032,0,1,0,1.64761899999576,1
134,0.512,1,1,1,0.819200199999614,1
135,0,0,0,1,1.00263699999778,1
136,0.032,0,0,1,0.956896499992581,1
137,0.064,1,0,0,0.713766500004567,1
138,0.512,1,1,1,0.64600049998262,1
139,0.032,0,0,1,2.4633865999931,1
140,0.256,0,0,1,0.885436200012919,1
141,0.032,0,1,0,1.60031780001009,1
142,0.032,0,0,1,0.655895999982022,1
143,0,0,1,0,1.37883840000723,1
144,0.512,1,1,1,0.763297700003022,1
145,0,0,0,1,1.12378819999867,1
146,0.512,1,1,1,0.637108299997635,1
147,0.032,0,0,1,0.902478700008942,1
148,0.256,1,1,1,0.760211100016022,1
149,0.064,0,0,1,0.693457800021861,1
150,0.064,1,1,1,1.3056641999865,1
151,0.128,0,0,1,0.633168100001058,1
152,0.064,0,1,0,1.44915540001239,1
153,0.032,0,0,1,1.38488619998679,1
154,0.512,0,0,1,0.823681100009708,1
155,0.032,0,1,0,1.26369520000299,1
156,0.128,0,0,1,0.619963799981633,1
157,0.128,0,0,1,0.665314999991097,1
158,0.128,1,1,1,1.40602920000674,1
159,0.032,1,0,0,1.70281600000453,1
160,0.256,1,1,1,0.861725800001295,1
161,0.128,1,1,1,1.02701630000956,1
162,0.512,0,0,1,0.60770870000124,1
163,0.128,0,0,1,1.92455990001326,1
164,0.512,1,1,1,0.649527000001399,1
165,0,1,1,1,1.17452219998813,1
166,0.064,0,0,1,0.699537100008456,1
167,0,0,1,0,1.01572830000077,1
168,0.256,0,0,1,1.09752260000096,1
169,0.256,1,1,1,0.739495399990119,1
170,0.064,1,1,1,2.019489600003,1
171,0.032,0,0,1,1.17103300002054,1
172,0.128,0,0,1,1.19274709999445,1
173,0.512,1,1,1,0.718056200013962,1
174,0.032,1,1,1,1.18146419999539,1
175,0.256,1,1,1,0.780015099997399,1
176,0.064,0,0,1,1.37206409999635,1
177,0.256,0,0,1,0.877234799991129,1
178,0.512,1,1,1,0.730059299996356,1
179,0.128,0,0,1,0.912314399989555,1
180,0,1,0,0,0.961543300014455,1
181,0.032,1,1,1,0.601371700002346,1
182,0.256,0,0,1,1.32448039998417,1
183,0.128,1,1,1,1.10990049998509,1
184,0.128,1,1,1,0.894883500004653,1
185,0.256,0,0,1,0.983566400012933,1
186,0.128,1,0,0,1.66705650000949,1
187,0.256,1,1,1,0.701750900014304,1
188,0.032,0,0,1,0.880940799979726,1
189,0.256,1,1,1,1.27637860001414,1
190,0.032,1,1,1,1.59272960000089,1
191,0.032,1,1,1,1.06282200000715,1
192,0.512,0,0,1,0.577158200001577,1
193,0.064,1,0,0,1.36046900000656,1
194,0.128,1,1,1,0.838090499979444,1
195,0.032,1,0,0,1.65799810001045,1
196,0.256,1,1,1,0.673073100013426,1
197,0.512,1,1,1,0.633460700017167,1
198,0,0,0,1,1.37677530001383,1
199,0,1,0,0,0.9057904999936,1
200,0.128,1,1,1,0.797542399988743,1
201,0,1,1,1,1.09737440000754,1
202,0.256,1,1,1,0.669481200020527,1
203,0.256,1,1,1,0.682218900008593,1
204,0,0,0,1,1.28877569999895,1
