num_trial,coh,direction,resp,status,RT,Completed
1,0.256,0,0,1,2.56014449999202,1
2,0.032,0,0,1,0.683622700016713,1
3,0.512,0,0,1,0.753090199985309,1
4,0.032,1,0,0,0.779160200007027,1
5,0.256,1,1,1,1.07728739999584,1
6,0.512,1,1,1,0.777686899993569,1
7,0.512,0,0,1,0.868330299999798,1
8,0,0,0,1,1.32592189998832,1
9,0.064,0,0,1,1.3180709000153,1
10,0.256,0,0,1,1.27001099998597,1
11,0,0,1,0,0.920419600006426,1
12,0.128,0,0,1,1.15971290000016,1
13,0.256,1,1,1,0.906826799997361,1
14,0.064,1,1,1,1.95557250001002,1
15,0.128,0,0,1,0.8391069000063,1
16,0.128,1,0,0,1.50461689999793,1
17,0.064,1,1,1,1.52494169998681,1
18,0,0,0,1,1.55875100000412,1
19,0.128,0,0,1,0.730134399986127,1
20,0,1,1,1,0.809798300004331,1
21,0,1,1,1,0.856882499996573,1
22,0.256,0,0,1,0.87547810000251,1
23,0.064,0,1,0,1.10009959997842,1
24,0.512,1,1,1,0.722898400010308,1
25,0.256,0,0,1,0.835679899988463,1
26,0,0,0,1,1.17506660000072,1
27,0.128,0,0,1,0.800445700006094,1
28,0,0,0,1,0.862141599995084,1
29,0,1,0,0,1.21671529999003,1
30,0.512,1,1,1,0.869312199996784,1
31,0.128,1,1,1,1.03538480002317,1
32,0.256,0,0,1,1.27765760000329,1
33,0.512,0,0,1,0.963786300009815,1
34,0.256,1,1,1,1.48485300000175,1
35,0,0,0,1,0.980533800000558,1
36,0.064,1,1,1,0.862423999991734,1
37,0.256,0,0,1,0.776194500009296,1
38,0.128,0,0,1,0.858793300023535,1
39,0.064,1,1,1,1.32197359998827,1
40,0.512,1,1,1,0.933742399996845,1
41,0,1,0,0,0.828677999990759,1
42,0.512,1,1,1,0.65083689999301,1
43,0.064,1,1,1,0.92802560000564,1
44,0.256,1,1,1,1.27491479998571,1
45,0.064,1,0,0,1.33102969999891,1
46,0.128,1,1,1,1.38684569997713,1
47,0,1,0,0,1.0876675999898,1
48,0.128,1,0,0,0.669600599998375,1
49,0.032,0,1,0,1.50152239997988,1
50,0,0,0,1,0.774501499981852,1
51,0,0,1,0,1.46013510000193,1
52,0.032,0,0,1,1.59394049999537,1
53,0.032,0,1,0,0.901793800003361,1
54,0.032,0,0,1,1.75757699998212,1
55,0.256,0,0,1,0.805528699973365,1
56,0.032,0,0,1,0.95509200001834,1
57,0.256,1,1,1,1.0570338999969,1
58,0.128,0,1,0,2.62204089999432,1
59,0.128,0,0,1,1.3725588999805,1
60,0.032,1,1,1,1.28875839998364,1
61,0.128,0,0,1,0.961985300004017,1
62,0,1,0,0,0.860071599978255,1
63,0.128,1,0,0,1.37655749998521,1
64,0.256,0,0,1,0.823101999994833,1
65,0.128,0,0,1,0.960176300024614,1
66,0.256,1,1,1,1.49188159999903,1
67,0.128,1,1,1,1.22615609999048,1
68,0.512,0,0,1,0.703594899998279,1
69,0.128,1,1,1,2.19167580001522,1
70,0.032,0,1,0,1.35110100000747,1
71,0,1,0,0,1.57600689999526,1
72,0.256,1,1,1,0.695184800017159,1
73,0.128,1,1,1,1.52234720002161,1
74,0.064,1,0,0,1.12244400000782,1
75,0.064,1,0,0,1.36232650000602,1
76,0.128,1,1,1,1.00154169998132,1
77,0.032,1,1,1,1.08119620001526,1
78,0.064,1,1,1,1.54740359997959,1
79,0.032,1,1,1,1.26346379998722,1
80,0.512,0,0,1,0.984447700000601,1
81,0.512,0,0,1,0.899264799983939,1
82,0.032,1,1,1,1.65529559997958,1
83,0.512,0,0,1,1.16504469999927,1
84,0,0,1,0,2.17077269998845,1
85,0.064,0,0,1,1.46099679998588,1
86,0,1,0,0,1.59598680000636,1
87,0.032,0,0,1,1.97553000002517,1
88,0.256,1,1,1,1.03823649999686,1
89,0.512,1,1,1,0.852656300005037,1
90,0.512,1,1,1,1.1108381000231,1
91,0,1,0,0,1.22130470001139,1
92,0.128,0,1,0,2.44276340000215,1
93,0.128,1,1,1,1.88547799998196,1
94,0.064,1,0,0,1.29406430001836,1
95,0.032,0,1,0,1.62783320000744,1
96,0.064,0,0,1,1.13017119999859,1
97,0.064,0,1,0,1.60319199998048,1
98,0.032,1,1,1,1.74816259997897,1
99,0.064,0,0,1,1.56855429999996,1
100,0.128,0,1,0,1.45373090001522,1
101,0,1,0,0,1.3664852999791,1
102,0,0,1,0,1.39412169999559,1
103,0,0,0,1,0.839511600002879,1
104,0.128,0,0,1,1.17613710000296,1
105,0.256,1,1,1,1.04814910001005,1
106,0,0,0,1,1.19965890000458,1
107,0,0,1,0,1.40702790001524,1
108,0.064,0,0,1,1.28886030000285,1
109,0.256,1,1,1,1.05631379998522,1
110,0.064,1,0,0,1.58644419998745,1
111,0.064,1,0,0,1.10115020000376,1
112,0.128,0,0,1,1.02548229999957,1
113,0.064,0,0,1,2.03616489999695,1
114,0.512,0,0,1,0.991000099980738,1
115,0.128,1,1,1,1.73939760000212,1
116,0.128,0,0,1,1.89127409999492,1
117,0.128,0,0,1,1.58481910001137,1
118,0.512,0,0,1,0.844141500012483,1
119,0.256,0,0,1,2.05409940000391,1
120,0,0,0,1,1.79971060002572,1
121,0.032,1,1,1,1.24640510001336,1
122,0.064,0,1,0,1.23617599997669,1
123,0.512,0,0,1,0.757834299991373,1
124,0.032,0,0,1,1.10793889997876,1
125,0,0,0,1,1.08506829998805,1
126,0.064,0,0,1,1.10735979999299,1
127,0.032,1,0,0,1.44644239998888,1
128,0.032,0,1,0,1.31302229998983,1
129,0.032,0,0,1,0.943398300005356,1
130,0.512,1,1,1,0.855129599978682,1
131,0.064,0,1,0,1.09569159999955,1
132,0.032,1,0,0,0.966647599998396,1
133,0.512,1,1,1,0.950929799990263,1
134,0.032,1,0,0,1.52862840000307,1
135,0.256,0,0,1,0.981702099990798,1
136,0.512,1,1,1,0.929234900017036,1
137,0.512,0,0,1,0.974007999990135,1
138,0.512,1,1,1,0.878255899995565,1
139,0,1,0,0,1.03754540000227,1
140,0.512,1,1,1,0.988497999991523,1
141,0.256,0,1,0,2.10777150001377,1
142,0.064,0,1,0,1.86431060000905,1
143,0.064,1,0,0,1.44282430000021,1
144,0.256,0,0,1,0.766196899989154,1
145,0.256,0,0,1,1.11405310002738,1
146,0.512,1,1,1,0.854369299981045,1
147,0.128,0,0,1,1.5639168000198,1
148,0.032,1,1,1,1.29537449998315,1
149,0,0,1,0,1.87758030000259,1
150,0.512,0,0,1,0.741067800001474,1
151,0,1,1,1,0.965321499999845,1
152,0,1,1,1,1.16914169999654,1
153,0.256,0,0,1,1.32586899999296,1
154,0.032,1,1,1,1.26099700000486,1
155,0.256,1,1,1,1.05961749999551,1
156,0.128,0,0,1,1.59687239999766,1
157,0.064,1,0,0,1.35161860001972,1
158,0.512,1,1,1,0.88767860000371,1
159,0.256,1,1,1,1.48445640000864,1
160,0.064,0,0,1,1.79689629998757,1
161,0.512,0,0,1,0.757315499999095,1
162,0.128,0,0,1,1.25116329998127,1
163,0.512,0,0,1,0.793451599980472,1
164,0.128,1,1,1,1.00477729999693,1
165,0.256,1,1,1,1.01039729997865,1
166,0.128,1,1,1,1.42789210000774,1
167,0.064,1,0,0,1.05328890000237,1
168,0.032,0,0,1,0.752795799984597,1
169,0.256,1,1,1,0.962239600019529,1
170,0.032,0,0,1,2.28515750000952,1
171,0.512,1,1,1,0.793857800017577,1
172,0.064,1,1,1,1.98869749999722,1
173,0.256,0,0,1,1.06795480000437,1
174,0.512,1,1,1,0.800895699998364,1
175,0.256,0,0,1,0.747680599975865,1
176,0.064,0,1,0,1.16258780000499,1
177,0.256,0,0,1,0.73991709999973,1
178,0.032,0,0,1,1.30148130000453,1
179,0.032,1,0,0,1.59385560001829,1
180,0.032,1,0,0,0.908317599998554,1
181,0.064,0,1,0,1.17715390000376,1
182,0,1,0,0,1.63127629997325,1
183,0.256,1,1,1,0.802095700026257,1
184,0.128,1,1,1,1.63795760000357,1
185,0.032,0,1,0,1.02978400001302,1
186,0,0,0,1,1.42963829997461,1
187,0.512,0,0,1,0.736762399988947,1
188,0.256,1,1,1,0.979732000007061,1
189,0.512,1,1,1,1.05448249998153,1
190,0.064,1,1,1,1.58669080000254,1
191,0.032,1,0,0,1.97100730001694,1
192,0.064,1,1,1,1.59545989998151,1
193,0.128,1,1,1,1.21868119999999,1
194,0.032,1,0,0,1.33685550000519,1
195,0,0,1,0,1.63399090000894,1
196,0.128,1,1,1,1.57291780001833,1
197,0.032,0,0,1,1.36683059998904,1
198,0.512,1,1,1,1.06698410000536,1
199,0,1,1,1,1.60128999999142,1
200,0.512,0,0,1,0.79063549998682,1
201,0.032,1,1,1,1.03414589999011,1
202,0.256,0,0,1,1.38407149998238,1
203,0.064,1,0,0,1.16167560001486,1
204,0,1,0,0,1.64139540001634,1
