num_trial,coh,direction,resp,status,RT,Completed
1,0.064,0,1,0,1.1392253000231,1
2,0.256,0,0,1,0.567675899976166,1
3,0.032,0,1,0,1.51779190002708,1
4,0.032,0,0,1,1.56434330000775,1
5,0.512,1,1,1,0.627087900007609,1
6,0,1,0,0,0.823310700012371,1
7,0.064,1,1,1,1.17801020000479,1
8,0.256,1,1,1,0.844435200007865,1
9,0.128,0,1,0,1.02428099999088,1
10,0,1,1,1,0.965737200021977,1
11,0.032,0,0,1,1.53115310001886,1
12,0.256,1,1,1,0.67544339998858,1
13,0.256,0,0,1,0.694495699979598,1
14,0.128,0,1,0,1.39032949999091,1
15,0.128,1,1,1,1.07002240000293,1
16,0.512,1,1,1,1.21046220001881,1
17,0.064,0,0,1,1.21291169998585,1
18,0.032,1,0,0,1.12584129997413,1
19,0.032,1,1,1,1.65803489999962,1
20,0.512,1,1,1,0.596238500002073,1
21,0.032,1,1,1,1.17826800001785,1
22,0.256,0,0,1,0.757424799987348,1
23,0.512,0,0,1,0.622520999982953,1
24,0.032,0,0,1,0.981442399992375,1
25,0.128,0,1,0,1.54343359998893,1
26,0,1,0,0,1.68195019999985,1
27,0,1,0,0,0.620150200003991,1
28,0,1,1,1,1.65198140000575,1
29,0.064,0,1,0,1.08265279998886,1
30,0,0,0,1,1.65156949998345,1
31,0.128,1,1,1,1.82755170000019,1
32,0.128,1,0,0,1.03352199998335,1
33,0,0,1,0,0.671768300002441,1
34,0,1,1,1,1.42409960000077,1
35,0.512,0,0,1,0.642084799997974,1
36,0.512,0,0,1,0.668942199990852,1
37,0.128,1,1,1,1.40430599998217,1
38,0.128,0,0,1,1.80830569998943,1
39,0.128,0,0,1,0.728456100012409,1
40,0.256,1,1,1,0.908699899999192,1
41,0.064,0,1,0,1.18966619999264,1
42,0.512,1,1,1,0.539974799990887,1
43,0,1,1,1,0.840917300025467,1
44,0.256,0,0,1,0.845387500012293,1
45,0.064,1,1,1,1.69556300001568,1
46,0.032,1,0,0,1.42858490001527,1
47,0.064,1,1,1,0.918772899982287,1
48,0.032,1,0,0,1.74724450000213,1
49,0.256,1,1,1,0.648421899997629,1
50,0,1,0,0,1.48569689999567,1
51,0,1,1,1,1.67551040000399,1
52,0.512,0,0,1,0.748970599990571,1
53,0.128,1,0,0,1.74985439999728,1
54,0.032,1,0,0,1.40524779999396,1
55,0.512,1,1,1,0.691785200004233,1
56,0.064,0,0,1,0.845405900006881,1
57,0.128,1,0,0,0.767198199988343,1
58,0,0,0,1,1.34653179999441,1
59,0.512,0,0,1,0.695355600008043,1
60,0.512,0,0,1,1.11875470000086,1
61,0.064,0,0,1,1.80510359999607,1
62,0.064,0,0,1,1.4263625999738,1
63,0.032,0,0,1,1.34194839998963,1
64,0.512,1,1,1,1.11024609999731,1
65,0,1,0,0,1.23345199998585,1
66,0.032,0,0,1,1.0715522999817,1
67,0.064,1,1,1,1.55525659999694,1
68,0.256,0,0,1,0.922880700003589,1
69,0.128,1,1,1,1.40306009998312,1
70,0.256,1,1,1,1.17206480001914,1
71,0,0,0,1,1.23955249998835,1
72,0.512,0,0,1,0.711973700003,1
73,0.512,0,0,1,0.845052299991949,1
74,0.128,1,1,1,1.13165699999081,1
75,0.256,1,1,1,1.46141759998864,1
76,0.512,0,0,1,0.804629299993394,1
77,0.128,0,0,1,1.15984740000567,1
78,0.032,1,1,1,1.39665989999776,1
79,0.256,1,1,1,1.63513239999884,1
80,0.256,1,1,1,1.4252131000103,1
81,0,0,0,1,2.1626690000121,1
82,0.064,0,0,1,1.32552539999597,1
83,0.032,1,0,0,1.34487229998922,1
84,0.032,1,0,0,0.909837900020648,1
85,0.128,0,0,1,0.758409699978074,1
86,0.032,1,1,1,1.44624820002355,1
87,0.064,0,0,1,1.2204073999892,1
88,0.128,1,1,1,1.29565759998513,1
89,0.256,1,1,1,1.03602949998458,1
90,0.032,0,0,1,1.24133770001936,1
91,0,0,1,0,1.61882370000239,1
92,0.512,1,1,1,0.701113999995869,1
93,0.064,0,0,1,0.802771300019231,1
94,0,0,0,1,1.5641930999991,1
95,0.512,0,0,1,0.784030600014376,1
96,0.064,1,0,0,1.11790949999704,1
97,0.032,1,0,0,0.807983000006061,1
98,0.064,1,0,0,0.757609599997522,1
99,0.256,0,0,1,0.683128300006501,1
100,0,0,0,1,1.44465699998545,1
101,0.256,1,1,1,0.822434100002283,1
102,0.064,1,0,0,1.65833750000456,1
103,0.512,0,0,1,0.588132899982156,1
104,0.128,1,1,1,1.08451320001041,1
105,0.064,1,1,1,1.39587539999047,1
106,0.512,1,1,1,0.661715900001582,1
107,0.032,1,0,0,2.29994629998691,1
108,0.128,0,0,1,0.707962799991947,1
109,0.128,1,1,1,1.07351180000114,1
110,0.128,0,0,1,0.727326399995945,1
111,0.032,1,0,0,0.874861800024519,1
112,0.128,1,1,1,1.49407069999143,1
113,0.512,0,0,1,0.727627600019332,1
114,0.256,0,0,1,0.974419200007105,1
115,0.256,0,0,1,0.820169700018596,1
116,0.064,0,0,1,0.82260350001161,1
117,0.032,0,0,1,0.983285299997078,1
118,0.128,0,0,1,0.958231500000693,1
119,0,1,0,0,0.892557599989232,1
120,0,1,0,0,0.622422599990387,1
121,0.128,0,0,1,0.865314700000454,1
122,0.032,1,1,1,1.2519169000152,1
123,0.032,0,0,1,1.5250473000051,1
124,0,1,0,0,1.0523983000021,1
125,0.128,0,0,1,2.19341119998717,1
126,0.128,1,1,1,1.11249799997313,1
127,0.512,0,0,1,0.701032799988752,1
128,0.256,1,1,1,1.14932199998293,1
129,0.256,1,1,1,0.725945999991382,1
130,0.032,0,0,1,1.12343010000768,1
131,0,1,0,0,1.00010239999392,1
132,0,1,0,0,1.11193010001443,1
133,0.032,0,0,1,0.933531499991659,1
134,0.064,0,1,0,1.856715300004,1
135,0.512,0,0,1,0.591804700001376,1
136,0.064,0,0,1,1.42267259999062,1
137,0.256,1,1,1,1.87955250000232,1
138,0.128,1,1,1,1.29128880001372,1
139,0.512,0,0,1,0.692968899995321,1
140,0.256,0,0,1,0.787414599995827,1
141,0.064,0,0,1,0.837118900002679,1
142,0.064,1,0,0,1.24082889998681,1
143,0.256,0,0,1,0.860104199993657,1
144,0.512,1,1,1,0.614435000024969,1
145,0.032,0,0,1,1.42519099998754,1
146,0.064,0,0,1,0.794521500007249,1
147,0.128,1,1,1,0.842206099972827,1
148,0.256,1,1,1,0.669947999995202,1
149,0,1,0,0,1.83673580002505,1
150,0.032,0,0,1,1.47740040000645,1
151,0,1,0,0,1.16666419999092,1
152,0.064,1,1,1,1.26341080002021,1
153,0.064,0,0,1,1.82468210000661,1
154,0,1,0,0,1.249187599984,1
155,0.512,0,0,1,0.614667300018482,1
156,0.256,1,1,1,0.915466800011927,1
157,0.512,1,1,1,0.650721599988174,1
158,0.256,1,1,1,0.788982800004305,1
159,0.064,0,0,1,0.903927699982887,1
160,0,0,0,1,1.01196119998349,1
161,0,0,0,1,0.753161600005114,1
162,0.256,0,0,1,0.756185799982632,1
163,0,0,0,1,0.914360700000543,1
164,0.032,0,1,0,1.53476339997724,1
165,0.512,0,0,1,0.599349500000244,1
166,0,1,0,0,1.01412780000828,1
167,0,0,0,1,0.721006100007799,1
168,0.128,0,0,1,0.728405700006988,1
169,0.256,1,1,1,0.711595999979181,1
170,0,0,0,1,1.42710440000519,1
171,0.128,0,0,1,1.18733250000514,1
172,0.512,1,1,1,0.607250499975635,1
173,0.256,0,0,1,0.79105110000819,1
174,0.064,0,0,1,1.08413040000596,1
175,0.032,0,0,1,1.26572500000475,1
176,0.128,0,0,1,0.80334050001693,1
177,0.032,0,1,0,1.05471050000051,1
178,0.512,0,0,1,0.707822800002759,1
179,0.032,1,0,0,0.876103399990825,1
180,0.064,1,0,0,2.28403070001514,1
181,0.512,0,0,1,0.678200299997116,1
182,0.256,1,1,1,1.94447359998594,1
183,0.032,1,1,1,1.30579980000039,1
184,0.064,0,0,1,1.04201259999536,1
185,0,1,1,1,1.49693609998212,1
186,0.032,1,1,1,1.26490500001819,1
187,0.032,1,1,1,0.904990399983944,1
188,0.512,1,1,1,0.730860900017433,1
189,0.064,1,1,1,0.853164699976332,1
190,0.512,0,0,1,0.71823920001043,1
191,0.512,1,1,1,0.755679599998984,1
192,0.128,0,0,1,1.6041508000053,1
193,0.128,0,0,1,0.681443999987096,1
194,0.256,0,0,1,0.878510900016408,1
195,0.256,1,1,1,0.871916100004455,1
196,0.256,0,0,1,0.744212799996603,1
197,0.512,1,1,1,0.578887499985285,1
198,0,1,1,1,1.78385549999075,1
199,0.256,0,0,1,0.652662100008456,1
200,0.064,1,1,1,1.09068130000378,1
201,0.128,1,1,1,0.977753899991512,1
202,0.064,1,1,1,0.745621000009123,1
203,0.128,0,1,0,0.738483399996767,1
204,0.064,0,1,0,0.802393099991605,1
